Folder: documents_in_latex-master_thesis/20131015-Master_Thesis/img/results

Note: 20131015-Master_Thesis/img/results/ig2-11-pcbm-uvvis-500rpm.txt
301	0.247
301.5	0.246
302	0.245
302.5	0.243
303	0.241
303.5	0.240
304	0.238
304.5	0.237
305	0.235
305.5	0.233
306	0.232
306.5	0.231
307	0.230
307.5	0.229
308	0.227
308.5	0.226
309	0.225
309.5	0.224
310	0.223
310.5	0.222
311	0.221
311.5	0.220
312	0.219
312.5	0.218
313	0.218
313.5	0.217
314	0.216
314.5	0.216
315	0.216
315.5	0.216
316	0.216
316.5	0.216
317	0.216
317.5	0.216
318	0.216
318.5	0.216
319	0.216
319.5	0.217
320	0.217
320.5	0.218
321	0.218
321.5	0.219
322	0.220
322.5	0.221
323	0.222
323.5	0.223
324	0.224
324.5	0.226
325	0.227
325.5	0.228
326	0.229
326.5	0.231
327	0.232
327.5	0.234
328	0.235
328.5	0.237
329	0.238
329.5	0.239
330	0.241
330.5	0.242
331	0.243
331.5	0.245
332	0.246
332.5	0.246
333	0.247
333.5	0.248
334	0.248
334.5	0.248
335	0.249
335.5	0.249
336	0.248
336.5	0.248
337	0.248
337.5	0.247
338	0.247
338.5	0.246
339	0.245
339.5	0.244
340	0.243
340.5	0.242
341	0.241
341.5	0.239
342	0.238
342.5	0.236
343	0.235
343.5	0.233
344	0.231
344.5	0.230
345	0.228
345.5	0.226
346	0.225
346.5	0.222
347	0.221
347.5	0.219
348	0.217
348.5	0.216
349	0.214
349.5	0.212
350	0.210
350.5	0.208
351	0.206
351.5	0.204
352	0.202
352.5	0.201
353	0.199
353.5	0.198
354	0.196
354.5	0.195
355	0.193
355.5	0.192
356	0.190
356.5	0.189
357	0.187
357.5	0.186
358	0.185
358.5	0.183
359	0.182
359.5	0.181
360	0.180
360.5	0.179
361	0.178
361.5	0.176
362	0.175
362.5	0.174
363	0.174
363.5	0.173
364	0.171
364.5	0.170
365	0.169
365.5	0.168
366	0.167
366.5	0.167
367	0.166
367.5	0.166
368	0.165
368.5	0.164
369	0.163
369.5	0.163
370	0.162
370.5	0.162
371	0.161
371.5	0.160
372	0.159
372.5	0.159
373	0.158
373.5	0.158
374	0.157
374.5	0.156
375	0.155
375.5	0.155
376	0.155
376.5	0.154
377	0.154
377.5	0.153
378	0.153
378.5	0.153
379	0.153
379.5	0.152
380	0.153
380.5	0.152
381	0.152
381.5	0.152
382	0.151
382.5	0.151
383	0.151
383.5	0.151
384	0.151
384.5	0.151
385	0.151
385.5	0.151
386	0.151
386.5	0.151
387	0.151
387.5	0.151
388	0.151
388.5	0.151
389	0.151
389.5	0.151
390	0.151
390.5	0.152
391	0.152
391.5	0.152
392	0.152
392.5	0.152
393	0.153
393.5	0.153
394	0.153
394.5	0.153
395	0.153
395.5	0.154
396	0.154
396.5	0.154
397	0.155
397.5	0.155
398	0.155
398.5	0.155
399	0.156
399.5	0.156
400	0.156
400.5	0.157
401	0.157
401.5	0.158
402	0.158
402.5	0.159
403	0.159
403.5	0.160
404	0.160
404.5	0.161
405	0.161
405.5	0.162
406	0.162
406.5	0.163
407	0.163
407.5	0.164
408	0.165
408.5	0.165
409	0.166
409.5	0.167
410	0.167
410.5	0.168
411	0.169
411.5	0.169
412	0.170
412.5	0.170
413	0.171
413.5	0.171
414	0.172
414.5	0.173
415	0.174
415.5	0.174
416	0.174
416.5	0.175
417	0.175
417.5	0.176
418	0.177
418.5	0.177
419	0.178
419.5	0.178
420	0.179
420.5	0.179
421	0.180
421.5	0.180
422	0.181
422.5	0.182
423	0.182
423.5	0.182
424	0.183
424.5	0.183
425	0.184
425.5	0.185


Note: 20131015-Master_Thesis/img/results/ig2-11-pcbm-uvvis-1000rpm.txt
301	0.190
301.5	0.189
302	0.189
302.5	0.188
303	0.186
303.5	0.185
304	0.184
304.5	0.183
305	0.182
305.5	0.181
306	0.180
306.5	0.179
307	0.178
307.5	0.177
308	0.176
308.5	0.175
309	0.174
309.5	0.173
310	0.172
310.5	0.172
311	0.171
311.5	0.170
312	0.170
312.5	0.169
313	0.168
313.5	0.168
314	0.168
314.5	0.167
315	0.167
315.5	0.167
316	0.167
316.5	0.167
317	0.167
317.5	0.167
318	0.167
318.5	0.167
319	0.167
319.5	0.167
320	0.167
320.5	0.168
321	0.169
321.5	0.169
322	0.170
322.5	0.170
323	0.171
323.5	0.172
324	0.173
324.5	0.174
325	0.175
325.5	0.176
326	0.177
326.5	0.178
327	0.179
327.5	0.180
328	0.181
328.5	0.183
329	0.184
329.5	0.185
330	0.186
330.5	0.187
331	0.188
331.5	0.189
332	0.190
332.5	0.191
333	0.191
333.5	0.192
334	0.193
334.5	0.193
335	0.193
335.5	0.194
336	0.194
336.5	0.194
337	0.194
337.5	0.194
338	0.194
338.5	0.193
339	0.193
339.5	0.192
340	0.191
340.5	0.191
341	0.190
341.5	0.189
342	0.188
342.5	0.187
343	0.186
343.5	0.185
344	0.184
344.5	0.183
345	0.181
345.5	0.181
346	0.179
346.5	0.178
347	0.177
347.5	0.175
348	0.174
348.5	0.173
349	0.171
349.5	0.170
350	0.169
350.5	0.167
351	0.166
351.5	0.165
352	0.164
352.5	0.162
353	0.161
353.5	0.160
354	0.159
354.5	0.157
355	0.156
355.5	0.155
356	0.154
356.5	0.153
357	0.152
357.5	0.151
358	0.150
358.5	0.149
359	0.148
359.5	0.147
360	0.146
360.5	0.146
361	0.145
361.5	0.144
362	0.143
362.5	0.142
363	0.142
363.5	0.140
364	0.139
364.5	0.138
365	0.137
365.5	0.137
366	0.137
366.5	0.136
367	0.135
367.5	0.135
368	0.134
368.5	0.134
369	0.133
369.5	0.132
370	0.132
370.5	0.131
371	0.131
371.5	0.130
372	0.130
372.5	0.129
373	0.128
373.5	0.128
374	0.127
374.5	0.127
375	0.127
375.5	0.127
376	0.126
376.5	0.125
377	0.125
377.5	0.124
378	0.125
378.5	0.124
379	0.124
379.5	0.124
380	0.124
380.5	0.124
381	0.123
381.5	0.123
382	0.123
382.5	0.123
383	0.123
383.5	0.123
384	0.122
384.5	0.122
385	0.122
385.5	0.122
386	0.122
386.5	0.122
387	0.122
387.5	0.122
388	0.122
388.5	0.122
389	0.122
389.5	0.122
390	0.122
390.5	0.122
391	0.122
391.5	0.123
392	0.123
392.5	0.123
393	0.123
393.5	0.123
394	0.123
394.5	0.123
395	0.124
395.5	0.124
396	0.124
396.5	0.124
397	0.124
397.5	0.125
398	0.125
398.5	0.125
399	0.125
399.5	0.126
400	0.126
400.5	0.126
401	0.126
401.5	0.127
402	0.127
402.5	0.127
403	0.128
403.5	0.128
404	0.128
404.5	0.129
405	0.129
405.5	0.130
406	0.130
406.5	0.130
407	0.131
407.5	0.132
408	0.132
408.5	0.132
409	0.133
409.5	0.134
410	0.134
410.5	0.135
411	0.135
411.5	0.135
412	0.136
412.5	0.136
413	0.137
413.5	0.137
414	0.138
414.5	0.138
415	0.139
415.5	0.139
416	0.140
416.5	0.140
417	0.141
417.5	0.141
418	0.141
418.5	0.142
419	0.142
419.5	0.143
420	0.143
420.5	0.144
421	0.144
421.5	0.144
422	0.145
422.5	0.145
423	0.146
423.5	0.146
424	0.147
424.5	0.147
425	0.147
425.5	0.148


Note: README.md
documents_in_latex-master_thesis
================================

Master Thesis of Ilario Gelmetti

% If you are looking for the PDF file, you can compile the .tex file or donwload the PDF from here:
http://etd.adm.unipi.it/theses/available/etd-09232013-170716/

File: ig2-4-xrd-spin700.txt
3	49
3.15	43
3.3	45
3.45	41
3.6	36
3.75	35
3.9	31
4.05	33
4.2	31
4.35	34
4.5	30
4.65	26
4.8	26
4.95	30
5.1	25
5.25	26
5.4	26
5.55	31
5.7	35
5.85	28
6	28
6.15	28
6.3	23
6.45	21
6.6	25
6.75	20
6.9	21
7.05	21
7.2	19
7.35	19
7.5	25
7.65	20
7.8	22
7.95	20
8.1	19
8.25	21
8.4	24
8.55	22
8.7	23
8.85	26
9	26
9.15	25
9.3	25
9.45	32
9.6	26
9.75	29
9.9	34
10.05	33
10.2	33
10.35	33
10.5	35
10.65	37
10.8	37
10.95	38
11.1	41
11.25	38
11.4	40
11.55	40
11.7	40
11.85	41
12	43
12.15	50
12.3	44
12.45	45
12.6	52
12.75	48
12.9	49
13.05	53
13.2	58
13.35	60
13.5	59
13.65	58
13.8	64
13.95	64
14.1	67
14.25	66
14.4	69
14.55	66
14.7	66
14.85	69
15	74
15.15	74
15.3	70
15.45	76
15.6	78
15.75	77
15.9	89
16.05	89
16.2	92
16.35	98
16.5	97
16.65	94
16.8	96
16.95	99
17.1	104
17.25	107
17.4	111
17.55	123
17.7	121
17.85	126
18	126
18.15	145
18.3	136
18.45	156
18.6	150
18.75	154
18.9	161
19.05	165
19.2	166
19.35	175
19.5	180
19.65	192
19.8	186
19.95	205
20.1	210
20.25	219
20.4	216
20.55	233
20.7	230
20.85	233
21	249
21.15	245
21.3	248
21.45	263
21.6	247
21.75	258
21.9	244
22.05	243
22.2	240
22.35	240
22.5	231
22.65	243
22.8	242
22.95	235
23.1	233
23.25	220
23.4	223
23.55	214
23.7	207
23.85	205
24	194
24.15	211
24.3	193
24.45	185
24.6	173
24.75	170
24.9	164
25.05	175
25.2	170
25.35	159
25.5	144
25.65	150
25.8	142
25.95	135
26.1	140
26.25	132
26.4	128
26.55	121
26.7	126
26.85	122
27	112
27.15	117
27.3	115
27.45	113
27.6	110
27.75	106
27.9	111
28.05	100
28.2	97
28.35	100
28.5	100
28.65	92
28.8	96
28.95	101
29.1	91
29.25	83
29.4	85
29.55	87
29.7	94
29.85	90
30	83
30.15	82
30.3	89
30.45	77
30.6	81
30.75	81
30.9	75
31.05	80
31.2	70
31.35	78
31.5	70
31.65	81
31.8	75
31.95	75
32.1	74
32.25	72
32.4	73
32.55	70
32.7	72
32.85	66
33	70

File: ig2-4-xrd-spin1500.txt
3	45
3.05	41
3.1	41
3.15	39
3.2	39
3.25	37
3.3	36
3.35	41
3.4	34
3.45	33
3.5	35
3.55	33
3.6	32
3.65	34
3.7	33
3.75	32
3.8	34
3.85	28
3.9	28
3.95	26
4	26
4.05	23
4.1	24
4.15	25
4.2	25
4.25	24
4.3	26
4.35	25
4.4	24
4.45	21
4.5	23
4.55	22
4.6	22
4.65	22
4.7	23
4.75	23
4.8	21
4.85	20
4.9	20
4.95	18
5	21
5.05	21
5.1	21
5.15	18
5.2	20
5.25	19
5.3	20
5.35	22
5.4	20
5.45	22
5.5	22
5.55	22
5.6	23
5.65	24
5.7	26
5.75	28
5.8	32
5.85	32
5.9	31
5.95	34
6	31
6.05	31
6.1	31
6.15	27
6.2	27
6.25	23
6.3	23
6.35	20
6.4	22
6.45	19
6.5	19
6.55	19
6.6	17
6.65	20
6.7	20
6.75	17
6.8	17
6.85	17
6.9	17
6.95	16
7	20
7.05	16
7.1	17
7.15	18
7.2	17
7.25	17
7.3	16
7.35	18
7.4	17
7.45	19
7.5	17
7.55	17
7.6	18
7.65	18
7.7	18
7.75	18
7.8	19
7.85	17
7.9	17
7.95	17
8	20
8.05	20
8.1	21
8.15	18
8.2	19
8.25	19
8.3	18
8.35	21
8.4	20
8.45	16
8.5	21
8.55	19
8.6	21
8.65	22
8.7	21
8.75	22
8.8	21
8.85	19
8.9	21
8.95	21
9	20
9.05	21
9.1	23
9.15	23
9.2	25
9.25	23
9.3	24
9.35	23
9.4	24
9.45	23
9.5	24
9.55	25
9.6	23
9.65	24
9.7	26
9.75	26
9.8	27
9.85	28
9.9	26
9.95	27
10	29
10.05	29
10.1	28
10.15	28
10.2	30
10.25	27
10.3	31
10.35	32
10.4	31
10.45	31
10.5	31
10.55	33
10.6	32
10.65	31
10.7	32
10.75	32
10.8	33
10.85	33
10.9	36
10.95	35
11	33
11.05	35
11.1	36
11.15	36
11.2	37
11.25	37
11.3	36
11.35	38
11.4	39
11.45	36
11.5	38
11.55	36
11.6	41
11.65	38
11.7	40
11.75	39
11.8	39
11.85	39
11.9	42
11.95	42
12	42
12.05	42
12.1	43
12.15	43
12.2	40
12.25	44
12.3	42
12.35	41
12.4	46
12.45	44
12.5	46
12.55	44
12.6	46
12.65	44
12.7	45
12.75	44
12.8	44
12.85	43
12.9	44
12.95	47
13	45

File: ig2-4-xrd.txt
2	91
2.15	90
2.3	77
2.45	80
2.6	76
2.75	74
2.9	81
3.05	81
3.2	72
3.35	81
3.5	86
3.65	95
3.8	89
3.95	91
4.1	100
4.25	106
4.4	112
4.55	129
4.7	158
4.85	191
5	263
5.15	357
5.3	525
5.45	464
5.6	258
5.75	160
5.9	129
6.05	124
6.2	120
6.35	115
6.5	112
6.65	111
6.8	113
6.95	113
7.1	116
7.25	112
7.4	114
7.55	103
7.7	112
7.85	112
8	102
8.15	103
8.3	97
8.45	108
8.6	98
8.75	106
8.9	109
9.05	107
9.2	107
9.35	107
9.5	110
9.65	107
9.8	113
9.95	113
10.1	110
10.25	122
10.4	121
10.55	133
10.7	128
10.85	123
11	118
11.15	113
11.3	121
11.45	125
11.6	126
11.75	125
11.9	125
12.05	124
12.2	126
12.35	130
12.5	133
12.65	137
12.8	146
12.95	137
13.1	145
13.25	150
13.4	152
13.55	151
13.7	149
13.85	152
14	151
14.15	153
14.3	152
14.45	163
14.6	154
14.75	154
14.9	163
15.05	160
15.2	166
15.35	171
15.5	181
15.65	202
15.8	205
15.95	210
16.1	201
16.25	195
16.4	201
16.55	193
16.7	200
16.85	206
17	206
17.15	202
17.3	204
17.45	205
17.6	205
17.75	197
17.9	194
18.05	191
18.2	206
18.35	189
18.5	186
18.65	191
18.8	187
18.95	191
19.1	191
19.25	198
19.4	186
19.55	196
19.7	194
19.85	195
20	188
20.15	184
20.3	190
20.45	183
20.6	180
20.75	197
20.9	185
21.05	174
21.2	189
21.35	187
21.5	186
21.65	180
21.8	180
21.95	191
22.1	165
22.25	183
22.4	190
22.55	190
22.7	196
22.85	194
23	196
23.15	214
23.3	211
23.45	227
23.6	221
23.75	213
23.9	215
24.05	207
24.2	202
24.35	191
24.5	189
24.65	185
24.8	194
24.95	189
25.1	196
25.25	193
25.4	178
25.55	184
25.7	177
25.85	176
26	185
26.15	180
26.3	182
26.45	176
26.6	181
26.75	186
26.9	173
27.05	175
27.2	179
27.35	175
27.5	170
27.65	172
27.8	166
27.95	177
28.1	175
28.25	184
28.4	170
28.55	173
28.7	171
28.85	169
29	178
29.15	182
29.3	165
29.45	169
29.6	176
29.75	175
29.9	160
30.05	175
30.2	178
30.35	168
30.5	184
30.65	175
30.8	176
30.95	172
31.1	172
31.25	167
31.4	172
31.55	170
31.7	169
31.85	165
32	162

File: ig2-8-xrd-cast-ch2cl2-anneal.txt
3	33
3.1	30
3.2	32
3.3	27
3.4	28
3.5	27
3.6	27
3.7	24
3.8	24
3.9	24
4	24
4.1	24
4.2	20
4.3	22
4.4	22
4.5	21
4.6	20
4.7	20
4.8	17
4.9	18
5	17
5.1	18
5.2	18
5.3	19
5.4	19
5.5	21
5.6	25
5.7	20
5.8	19
5.9	17
6	18
6.1	18
6.2	16
6.3	15
6.4	15
6.5	16
6.6	16
6.7	14
6.8	15
6.9	16
7	15
7.1	16
7.2	14
7.3	15
7.4	14
7.5	16
7.6	19
7.7	19
7.8	15
7.9	17
8	18
8.1	16
8.2	17
8.3	18
8.4	17
8.5	20
8.6	18
8.7	21
8.8	17
8.9	16
9	21
9.1	19
9.2	21
9.3	20
9.4	22
9.5	22
9.6	24
9.7	22
9.8	23
9.9	25
10	24
10.1	25
10.2	26
10.3	28
10.4	25
10.5	28
10.6	28
10.7	29
10.8	28
10.9	29
11	31
11.1	30
11.2	32
11.3	32
11.4	30
11.5	32
11.6	34
11.7	33
11.8	39
11.9	37
12	35
12.1	35
12.2	36
12.3	39
12.4	37
12.5	41
12.6	42
12.7	42
12.8	42
12.9	44
13	45
13.1	43
13.2	49
13.3	45
13.4	45
13.5	46
13.6	47
13.7	47
13.8	45
13.9	51
14	53
14.1	50
14.2	54
14.3	49
14.4	58
14.5	56
14.6	53
14.7	53
14.8	61
14.9	62
15	59
15.1	64
15.2	64
15.3	65
15.4	63
15.5	65
15.6	67
15.7	67
15.8	74
15.9	71
16	71
16.1	73
16.2	75
16.3	75
16.4	82
16.5	80
16.6	80
16.7	82
16.8	86
16.9	91
17	94
17.1	90
17.2	97
17.3	94
17.4	97
17.5	98
17.6	102
17.7	100
17.8	104
17.9	108
18	106
18.1	115
18.2	115
18.3	118
18.4	119
18.5	120
18.6	127
18.7	134
18.8	139
18.9	143
19	141
19.1	145
19.2	157
19.3	163
19.4	152
19.5	161
19.6	172
19.7	169
19.8	179
19.9	182
20	183
20.1	184
20.2	189
20.3	191
20.4	196
20.5	196
20.6	201
20.7	199
20.8	204
20.9	208
21	212
21.1	214
21.2	204
21.3	214
21.4	219
21.5	217
21.6	211
21.7	217
21.8	211
21.9	211
22	206
22.1	210
22.2	206
22.3	221
22.4	205
22.5	209
22.6	199
22.7	199
22.8	202
22.9	198
23	183
23.1	193
23.2	185
23.3	184
23.4	184
23.5	183
23.6	181
23.7	170
23.8	170
23.9	170
24	162
24.1	158
24.2	153
24.3	151
24.4	153
24.5	145
24.6	143
24.7	140
24.8	142
24.9	138
25	139
25.1	128
25.2	128
25.3	128
25.4	130
25.5	126
25.6	125
25.7	116
25.8	115
25.9	114
26	111
26.1	109
26.2	109
26.3	110
26.4	103
26.5	100
26.6	101
26.7	98
26.8	98
26.9	91
27	94

File: ig2-8-xrd-cast-ch2cl2-Perp_32_00001IP.txt
0.021947	0
0.153629	59.001
0.285311	57.7921
0.416993	67.4934
0.548675	20322.5
0.680357	18711.9
0.812039	7182
0.943721	1842.73
1.0754	1572.45
1.20708	1772.62
1.33877	2176.02
1.47045	2634.72
1.60213	2932.74
1.73381	2998.79
1.86549	3310.06
1.99718	3563.89
2.12886	4005.65
2.26054	4165.79
2.39222	4244.53
2.5239	4249.94
2.65559	4371.47
2.78727	4836.58
2.91895	4890.9
3.05063	5093.1
3.18231	5259.95
3.314	5041.21
3.44568	5040.64
3.57736	5147.74
3.70904	5182.07
3.84072	5186.71
3.97241	5210.61
4.10409	5309.28
4.23577	5623.14
4.36745	5851.78
4.49913	6219.07
4.63082	7081.47
4.7625	9972.17
4.89418	17181.2
5.02586	23071.2
5.15754	21714.8
5.28923	14682.2
5.42091	9495.57
5.55259	7403.15
5.68427	6492.7
5.81595	5984.56
5.94764	5699.94
6.07932	5519.58
6.211	5433.46
6.34268	5337.07
6.47436	5206.44
6.60604	5123.13
6.73773	5090.39
6.86941	5016.64
7.00109	4995.41
7.13277	4937.22
7.26445	4898.63
7.39614	4865.4
7.52782	4806.63
7.6595	4777.98
7.79118	4758.7
7.92286	4734.92
8.05455	4691.22
8.18623	4694.6
8.31791	4691.61
8.44959	4689.23
8.58127	4700.88
8.71296	4711.05
8.84464	4716.84
8.97632	4724.92
9.108	4753.48
9.23968	4828.31
9.37137	4821.68
9.50305	4860.44
9.63473	4938.28
9.76641	5056.01
9.89809	5142.42
10.0298	5223.67
10.1615	5223.51
10.2931	5149.91
10.4248	5082.72
10.5565	5005.34
10.6882	4955.64
10.8199	4967.59
10.9515	4950.66
11.0832	4974.18
11.2149	5011.68
11.3466	5048.81
11.4783	5089.14
11.61	5122.45
11.7416	5169.16
11.8733	5212.77
12.005	5323.25
12.1367	3980.29
12.2684	2547.35
12.4001	2045.51
12.5317	2931.46
12.6634	3561.23
12.7951	4543.03
12.9268	5398.15
13.0585	5566.96
13.1901	5627.17
13.3218	5665.06
13.4535	5726.5
13.5852	5821.64
13.7169	5875.51
13.8486	5954.13
13.9802	6058.21
14.1119	6132.14
14.2436	6241.54
14.3753	6339.19
14.507	6506.64
14.6386	6740
14.7703	6904.11
14.902	7073.62
15.0337	7286.84
15.1654	7509.06
15.2971	7552.99
15.4287	7568.39
15.5604	7590.88
15.6921	7637.95
15.8238	7683.78
15.9555	7732.88
16.0871	7812.1
16.2188	7861.37
16.3505	7938.87
16.4822	8019.88
16.6139	8043.75
16.7456	8073.53
16.8772	8104.86
17.0089	8139.33
17.1406	8194.7
17.2723	8233.99
17.404	8284.02
17.5356	8329.72
17.6673	8389.43
17.799	8485.1
17.9307	8553.88
18.0624	8615.83
18.1941	8664.63
18.3257	8749.57
18.4574	8802.5
18.5891	8860.25
18.7208	8920.91
18.8525	8928.86
18.9841	8958.57
19.1158	8969.9
19.2475	9026.67
19.3792	9022.8
19.5109	9048.79
19.6426	9119.76
19.7742	9165.51
19.9059	9241.72
20.0376	9251.17
20.1693	9265.39
20.301	9215.69
20.4326	9213.02
20.5643	9242.51
20.696	9262.41
20.8277	9152.73
20.9594	9087.3
21.0911	9020.82
21.2227	8951.94
21.3544	8891.99
21.4861	8867.5
21.6178	8776.81
21.7495	8637.52
21.8812	8622.31
22.0128	8530.01
22.1445	8472.35
22.2762	8395.9
22.4079	8292.94
22.5396	8181.19
22.6712	8055.31
22.8029	7973.91
22.9346	7874
23.0663	7781.32
23.198	7592.44
23.3297	7461.08
23.4613	7329.29
23.593	7199.11
23.7247	7036.85
23.8564	6978.96
23.9881	6784.38
24.1197	6643.82
24.2514	6532.3
24.3831	6408.9
24.5148	6303.98
24.6465	6155.44
24.7782	6072.2
24.9098	5946.23
25.0415	5836.97
25.1732	5746.51
25.3049	5645.8
25.4366	5549.1
25.5682	5473.32
25.6999	5396.83
25.8316	5324.38
25.9633	5246.55
26.095	5171.4
26.2267	5117.79
26.3583	5050.49
26.49	4970.86
26.6217	4900.96
26.7534	4834.7
26.8851	4785.54
27.0167	4672.94
27.1484	4635.1
27.2801	4498.53
27.4118	4429.08
27.5435	4419.61
27.6752	4276.35
27.8068	4164.14
27.9385	4089.24
28.0702	4017.02
28.2019	3953.93
28.3336	3899.45
28.4653	4075.79
28.5969	4067.62
28.7286	3685.76
28.8603	3601.64
28.992	3543.5
29.1237	3511.09
29.2553	3491.75
29.387	3458.53
29.5187	3442.85
29.6504	3418.66
29.7821	3392.47
29.9138	3383.25
30.0454	3363.07
30.1771	3342.6
30.3088	3387.7
30.4405	3352.16
30.5722	3352.37
30.7038	3319.81
30.8355	3298.21
30.9672	3281.29
31.0989	3257.73
31.2306	3251.13
31.3623	3220.78
31.4939	3199.14
31.6256	3227.9
31.7573	3462.33
31.889	3372.68
32.0207	3188.2
32.1523	3154.19

File: ig2-8-xrd-cast-ch2cl2.txt
3	37
3.1	34
3.2	33
3.3	29
3.4	28
3.5	28
3.6	26
3.7	25
3.8	25
3.9	23
4	24
4.1	23
4.2	22
4.3	23
4.4	20
4.5	22
4.6	19
4.7	20
4.8	20
4.9	20
5	19
5.1	19
5.2	21
5.3	20
5.4	21
5.5	22
5.6	24
5.7	22
5.8	21
5.9	20
6	18
6.1	18
6.2	18
6.3	17
6.4	17
6.5	18
6.6	19
6.7	17
6.8	17
6.9	17
7	16
7.1	17
7.2	17
7.3	17
7.4	17
7.5	18
7.6	17
7.7	18
7.8	17
7.9	15
8	20
8.1	16
8.2	16
8.3	18
8.4	19
8.5	19
8.6	18
8.7	19
8.8	21
8.9	20
9	20
9.1	20
9.2	21
9.3	23
9.4	23
9.5	21
9.6	24
9.7	23
9.8	23
9.9	24
10	27
10.1	27
10.2	27
10.3	26
10.4	28
10.5	28
10.6	28
10.7	30
10.8	31
10.9	30
11	32
11.1	30
11.2	33
11.3	32
11.4	33
11.5	36
11.6	35
11.7	34
11.8	36
11.9	37
12	38
12.1	39
12.2	37
12.3	42
12.4	37
12.5	42
12.6	38
12.7	41
12.8	42
12.9	43
13	43
13.1	44
13.2	47
13.3	49
13.4	47
13.5	47
13.6	45
13.7	52
13.8	49
13.9	50
14	53
14.1	52
14.2	55
14.3	53
14.4	57
14.5	59
14.6	58
14.7	59
14.8	63
14.9	65
15	68
15.1	65
15.2	68
15.3	67
15.4	71
15.5	72
15.6	70
15.7	73
15.8	78
15.9	79
16	80
16.1	81
16.2	84
16.3	81
16.4	91
16.5	88
16.6	87
16.7	90
16.8	91
16.9	97
17	99
17.1	102
17.2	100
17.3	104
17.4	106
17.5	112
17.6	112
17.7	114
17.8	116
17.9	121
18	124
18.1	125
18.2	121
18.3	131
18.4	133
18.5	135
18.6	141
18.7	138
18.8	145
18.9	144
19	152
19.1	152
19.2	156
19.3	161
19.4	163
19.5	172
19.6	174
19.7	170
19.8	176
19.9	179
20	177
20.1	182
20.2	183
20.3	193
20.4	198
20.5	196
20.6	202
20.7	207
20.8	203
20.9	202
21	209
21.1	205
21.2	210
21.3	206
21.4	212
21.5	217
21.6	207
21.7	210
21.8	212
21.9	209
22	210
22.1	209
22.2	204
22.3	209
22.4	212
22.5	204
22.6	197
22.7	199
22.8	196
22.9	194
23	202
23.1	196
23.2	183
23.3	174
23.4	175
23.5	176
23.6	175
23.7	176
23.8	176
23.9	170
24	173
24.1	164
24.2	161
24.3	167
24.4	157
24.5	148
24.6	154
24.7	144
24.8	139
24.9	144
25	145
25.1	141
25.2	140
25.3	131
25.4	131
25.5	129
25.6	125
25.7	121
25.8	124
25.9	121
26	118

File: quartz-xrd.txt
3	37
3.1	37
3.2	31
3.3	32
3.4	33
3.5	30
3.6	28
3.7	28
3.8	27
3.9	26
4	26
4.1	26
4.2	25
4.3	23
4.4	23
4.5	21
4.6	22
4.7	19
4.8	21
4.9	19
5	21
5.1	19
5.2	20
5.3	19
5.4	18
5.5	19
5.6	19
5.7	18
5.8	17
5.9	18
6	16
6.1	16
6.2	19
6.3	17
6.4	18
6.5	17
6.6	16
6.7	17
6.8	16
6.9	16
7	17
7.1	16
7.2	16
7.3	16
7.4	18
7.5	17
7.6	17
7.7	18
7.8	18
7.9	17
8	15
8.1	17
8.2	19
8.3	18
8.4	19
8.5	20
8.6	20
8.7	21
8.8	21
8.9	21
9	22
9.1	23
9.2	23
9.3	22
9.4	23
9.5	22
9.6	23
9.7	25
9.8	26
9.9	27
10	26
10.1	28
10.2	28
10.3	27
10.4	27
10.5	27
10.6	30
10.7	29
10.8	31
10.9	29
11	30
11.1	33
11.2	32
11.3	30
11.4	33
11.5	30
11.6	34
11.7	37
11.8	33
11.9	33
12	37
12.1	32
12.2	34
12.3	34
12.4	36
12.5	36
12.6	34
12.7	35
12.8	33
12.9	37
13	37
13.1	42
13.2	34
13.3	40
13.4	37
13.5	40
13.6	40
13.7	39
13.8	41
13.9	41
14	42
14.1	44
14.2	41
14.3	41
14.4	40
14.5	42
14.6	42
14.7	47
14.8	44
14.9	45
15	48
15.1	47
15.2	46
15.3	46
15.4	47
15.5	51
15.6	50
15.7	49
15.8	54
15.9	52
16	53
16.1	57
16.2	55
16.3	58
16.4	56
16.5	60
16.6	61
16.7	58
16.8	62
16.9	61
17	67
17.1	72
17.2	76
17.3	73
17.4	71
17.5	71
17.6	79
17.7	78
17.8	80
17.9	82
18	81
18.1	82
18.2	86
18.3	89
18.4	90
18.5	92
18.6	96
18.7	100
18.8	100
18.9	107
19	105
19.1	111
19.2	110
19.3	111
19.4	114
19.5	119
19.6	121
19.7	122
19.8	126
19.9	132
20	134
20.1	134
20.2	148
20.3	137
20.4	165
20.5	140
20.6	151
20.7	162
20.8	151
20.9	168
21	153
21.1	159
21.2	153
21.3	154
21.4	154
21.5	170
21.6	174
21.7	172
21.8	161
21.9	161
22	153
22.1	153
22.2	155
22.3	161
22.4	161
22.5	151
22.6	146
22.7	154
22.8	153
22.9	144
23	149
23.1	144
23.2	138
23.3	139
23.4	69
23.5	136
23.6	131
23.7	129
23.8	129
23.9	127
24	127
24.1	131
24.2	128
24.3	122
24.4	124
24.5	118
24.6	116
24.7	117
24.8	116
24.9	103
25	112
25.1	107
25.2	104
25.3	100
25.4	91
25.5	99
25.6	98
25.7	100
25.8	86
25.9	88
26	88