Folder: documents_in_latex-master_thesis/20131015-Master_Thesis_Presentation/img

Note: 20131015-Master_Thesis_Presentation/img/ig2-8-cd-137-chcl3-70-meoh-30.txt
600	0
599	-0.3586459
598	-0.2720435
597	-0.0001629
596	-0.0048171
595	-0.0996277
594	-0.1124409
593	0.0155891
592	0.2204534
591	0.2769784
590	0.1046259
589	-0.0213685
588	-0.0769604
587	0.02445736
586	0.00317722
585	-0.3035379
584	-0.2229163
583	-0.0977421
582	-0.3074053
581	-0.438842
580	-0.4212112
579	-0.1991537
578	-0.048081613
577	-0.17460713
576	-0.2740952
575	-0.2430292
574	-0.3973725
573	-0.3092423
572	-0.01778747
571	-0.01880005
570	0.07010713
569	-0.14737925
568	-0.0681079
567	-0.1149834
566	-0.1689008
565	-0.08358007
564	-0.1227225
563	-0.0575517
562	-0.0208777
561	-0.0326039
560	-0.1601217
559	-0.3060664
558	-0.2955157
557	-0.172307
556	0.0085568
555	-0.0253536
554	-0.1083902
553	-0.034899
552	-0.0091459
551	-0.0407464
550	-0.2085444
549	-0.2657187
548	-0.0893401
547	0.0436893
546	0.0038174
545	-0.0569658
544	0.0477763
543	0.1186495
542	-0.0854462
541	-0.1429572
540	-0.0540895
539	-0.0806066
538	-0.0195414
537	0.098133
536	0.0309207
535	-0.0230385
534	0.0153199
533	-0.0521722
532	0.0760069
531	0.1004179
530	0.0266658
529	0.0694444
528	0.1366176
527	0.0394621
526	0.0243289
525	0.1181015
524	0.0774281
523	0.012825
522	-0.038829
521	-0.144195
520	-0.038538
519	-0.132669
518	-0.163628
517	-0.107279
516	-0.054141
515	0.078639
514	0.116492
513	0.02975
512	0.154471
511	0.178136
510	0.17743
509	0.158725
508	0.030262
507	-0.029241
506	-0.075866
505	-0.084167
504	0.115942
503	0.210481
502	-0.106015
501	-0.010835
500	0.118061
499	0.041205
498	0.118059
497	0.017141
496	-0.079441
495	-0.127429
494	-0.203108
493	-0.02268
492	0.066227
491	-0.107982
490	-0.263336
489	-0.168232
488	0.174774
487	0.167108
486	0.091946
485	0.146423
484	0.030243
483	0.138673
482	0.094568
481	0.120144
480	0.1774
479	-0.117565
478	-0.370347
477	-0.241582
476	-0.229079
475	-0.151491
474	0.023674
473	0.080858
472	-0.041593
471	-0.159796
470	-0.210873
469	-0.137286
468	-0.238397
467	-0.304085
466	-0.184454
465	-0.064384
464	-0.125908
463	-0.134965
462	-0.158206
461	-0.243741
460	-0.136383
459	-0.167064
458	-0.111814
457	-0.193402
456	-0.469769
455	-0.3849558
454	-0.3992126
453	-0.4837947
452	-0.3431315
451	-0.311808
450	-0.6495662
449	-0.6159779
448	-0.377238
447	-0.6081884
446	-0.6116879
445	-0.4592446
444	-0.3921203
443	-0.4506378
442	-0.5670968
441	-0.3888093
440	-0.4492167
439	-0.4485471
438	-0.5511164
437	-0.4369312
436	-0.465212
435	-0.6072925
434	-0.4371784
433	-0.4235497
432	-0.3888171
431	-0.5628501
430	-0.4673041
429	-0.2912959
428	-0.5064903
427	-0.6644468
426	-0.5008218
425	-0.2145738
424	-0.2729753
423	-0.2672575
422	-0.3976374
421	-0.4951957
420	-0.5163245
419	-0.5923224
418	-0.5689368
417	-0.643986
416	-0.5425762
415	-0.3123297
414	-0.3212917
413	-0.3023331
412	-0.2610423
411	-0.5185538
410	-0.3363226
409	-0.3588993
408	-0.3705286
407	-0.367638
406	-0.5928959
405	-0.4647153
404	-0.4632949
403	-0.4188118
402	-0.2781233
401	-0.3499167
400	-0.259246
399	-0.3808004
398	-0.4096926
397	-0.3346904
396	-0.2343385
395	-0.3834295
394	-0.3308401
393	-0.4673415
392	-0.566101

Note: 20131015-Master_Thesis_Presentation/img/ig2-8-pl-137-chcl3-30-meoh-70.txt
460.544	33.9848
461.198	28.2439
461.852	35.7214
462.506	27.0432
463.159	40.0034
463.813	28.4587
464.467	45.0087
465.121	34.9579
465.774	31.2785
466.428	35.4337
467.082	27.0265
467.735	30.6176
468.389	23.42
469.042	29.8944
469.696	28.7642
470.349	12.4648
471.003	28.1544
471.656	22.9587
472.31	25.8772
472.963	14.6113
473.616	13.4887
474.27	23.9597
474.923	22.2708
475.576	19.4767
476.229	15.8456
476.882	14.5526
477.535	20.675
478.188	21.9474
478.841	17.4676
479.494	16.0379
480.147	29.2509
480.8	17.4914
481.453	19.1591
482.106	17.399
482.759	24.3401
483.411	17.5136
484.064	15.903
484.717	7.29265
485.37	17.2622
486.022	10.3573
486.675	20.7537
487.327	6.12305
487.98	8.91985
488.632	22.1791
489.285	12.7593
489.937	14.3181
490.59	18.8534
491.242	7.97225
491.894	18.7452
492.547	5.35405
493.199	9.99215
493.851	16.1446
494.503	10.7726
495.155	10.0666
495.807	20.2002
496.46	10.8105
497.112	7.82535
497.764	7.04875
498.415	24.7863
499.067	15.4844
499.719	16.1099
500.371	16.7067
501.023	16.0258
501.675	17.5679
502.327	19.1884
502.978	5.60705
503.63	23.9584
504.282	9.42385
504.933	22.7954
505.585	15.0373
506.236	17.6329
506.888	14.7672
507.539	11.3464
508.191	14.4576
508.842	24.9779
509.493	25.1148
510.145	16.7064
510.796	26.1661
511.447	19.7795
512.098	25.6562
512.75	21.7171
513.401	23.4826
514.052	21.1545
514.703	30.4664
515.354	20.2248
516.005	22.0392
516.656	22.3226
517.307	29.2353
517.958	29.9303
518.609	28.9275
519.259	27.2418
519.91	25.5867
520.561	28.8651
521.212	32.1812
521.862	25.3412
522.513	30.8681
523.164	33.8816
523.814	41.4748
524.465	40.5174
525.115	35.113
525.766	37.3454
526.416	36.7049
527.066	39.3364
527.717	37.6131
528.367	41.9136
529.017	44.393
529.668	45.6354
530.318	41.1998
530.968	48.5647
531.618	42.0245
532.268	51.5565
532.918	50.3775
533.568	49.6902
534.218	52.253
534.868	59.691
535.518	53.5055
536.168	58.184
536.818	61.0865
537.468	65.079
538.117	64.9165
538.767	68.0825
539.417	69.362
540.067	68.7345
540.716	72.097
541.366	75.4375
542.015	75.0625
542.665	74.896
543.314	79.492
543.964	80.5755
544.613	78.2845
545.262	84.427
545.912	87.4935
546.561	86.244
547.21	92.57
547.86	92.529
548.509	93.323
549.158	96.014
549.807	98.487
550.456	106.59
551.105	107.505
551.754	102.544
552.403	109.737
553.052	117.838
553.701	117.769
554.35	115.291
554.999	118.535
555.647	126.447
556.296	128.234
556.945	132.736
557.593	126.133
558.242	130.521
558.891	135.583
559.539	137.931
560.188	138.062
560.836	146.298
561.485	149.956
562.133	151.606
562.781	155.425
563.43	155.761
564.078	157.425
564.726	164.722
565.375	166.264
566.023	167.788
566.671	170.588
567.319	171.005
567.967	178.148
568.615	179.675
569.263	187.095
569.911	191.154
570.559	191.182
571.207	191.024
571.855	203.641
572.503	198.913
573.15	212.996
573.798	214.808
574.446	218.919
575.093	218.361
575.741	221.674
576.389	231.125
577.036	232.832
577.684	240.266
578.331	240.154
578.979	239.884
579.626	249.399
580.273	255.617
580.921	259.774
581.568	267.664
582.215	263.597
582.863	265.896
583.51	274.637
5

Note: README.md
documents_in_latex-master_thesis
================================

Master Thesis of Ilario Gelmetti

% If you are looking for the PDF file, you can compile the .tex file or donwload the PDF from here:
http://etd.adm.unipi.it/theses/available/etd-09232013-170716/

File: ig2-8-xrd-smussato.txt
3.1	42.6
3.35	48
3.6	60.8
3.85	72.8
4.1	97
4.35	126.2
4.6	179.8
4.85	263.8
5.1	393.4
5.35	566.4
5.6	647.8
5.85	444
6.1	261.6
6.35	176.2
6.6	127.2
6.85	105.2
7.1	90.2
7.35	79.4
7.6	70.4
7.85	67.2
8.1	58.6
8.35	56.8
8.6	57
8.85	50.8
9.1	48.4
9.35	45.6
9.6	46.2
9.85	45.2
10.1	47.8
10.35	50.8
10.6	55.2
10.85	51.6
11.1	46.2
11.35	41.6
11.6	40.4
11.85	38.2
12.1	38.6
12.35	38
12.6	38
12.85	39
13.1	45
13.35	45.8
13.6	46.4
13.85	50.2
14.1	53.2
14.35	55.6
14.6	64
14.85	66
15.1	74.4
15.35	86.2
15.6	101
15.85	115.8
16.1	124.2
16.35	121.8
16.6	124
16.85	128.6
17.1	131.8
17.35	136.6
17.6	129.2
17.85	123.4
18.1	127.8
18.35	126.4
18.6	123.8
18.85	123
19.1	122.8
19.35	121.2
19.6	124.6
19.85	123.6
20.1	120.4
20.35	121
20.6	127.2
20.85	125.6
21.1	126.8
21.35	124
21.6	125
21.85	132.4
22.1	133.6
22.35	140.6
22.6	143
22.85	145.6
23.1	157.6
23.35	160.6
23.6	163
23.85	166.2
24.1	161.8
24.35	152.4
24.6	145.4
24.85	138.2
25.1	136.4
25.35	127.6
25.6	129.2
25.85	120.2
26.1	118
26.35	110.8
26.6	109.8
26.85	105.2
27.1	99.8
27.35	103.8
27.6	101.8
27.85	99.8
28.1	94.2
28.35	93.4
28.6	92.4
28.85	89.2
29.1	88.6
29.35	86.8
29.6	80.6
29.85	83
30.1	82
30.35	82.2
30.6	82.6
30.85	76.2
31.1	78.6
31.35	81.2
31.6	78.4
31.85	75.4
32.1	73.6
32.35	77.8
32.6	79.6
32.85	77.8

File: ig2-8-xrd.txt
3	41
3.15	46
3.3	48
3.45	46
3.6	67
3.75	67
3.9	71
4.05	96
4.2	109
4.35	125
4.5	154
4.65	181
4.8	245
4.95	310
5.1	396
5.25	512
5.4	592
5.55	684
5.7	591
5.85	443
6	319
6.15	230
6.3	188
6.45	155
6.6	122
6.75	113
6.9	97
7.05	91
7.2	80
7.35	81
7.5	72
7.65	72
7.8	73
7.95	61
8.1	58
8.25	57
8.4	58
8.55	61
8.7	55
8.85	51
9	49
9.15	46
9.3	44
9.45	47
9.6	47
9.75	46
9.9	46
10.05	51
10.2	46
10.35	50
10.5	54
10.65	59
10.8	54
10.95	45
11.1	46
11.25	42
11.4	40
11.55	40
11.7	39
11.85	43
12	39
12.15	38
12.3	34
12.45	42
12.6	36
12.75	37
12.9	41
13.05	42
13.2	49
13.35	49
13.5	45
13.65	50
13.8	49
13.95	50
14.1	58
14.25	56
14.4	52
14.55	60
14.7	73
14.85	67
15	71
15.15	80
15.3	88
15.45	93
15.6	101
15.75	101
15.9	119
16.05	129
16.2	123
16.35	126
16.5	119
16.65	125
16.8	124
16.95	132
17.1	135
17.25	126
17.4	140
17.55	129
17.7	131
17.85	126
18	126
18.15	131
18.3	125
18.45	128
18.6	129
18.75	124
18.9	120
19.05	119
19.2	122
19.35	121
19.5	125
19.65	124
19.8	125
19.95	118
20.1	112
20.25	118
20.4	118
20.55	128
20.7	123
20.85	122
21	122
21.15	136
21.3	122
21.45	130
21.6	128
21.75	134
21.9	133
22.05	134
22.2	132
22.35	140
22.5	147
22.65	138
22.8	143
22.95	153
23.1	161
23.25	158
23.4	168
23.55	162
23.7	161
23.85	160
24	168
24.15	155
24.3	156
24.45	152
24.6	149
24.75	141
24.9	136
25.05	137
25.2	143
25.35	128
25.5	127
25.65	125
25.8	119
25.95	119
26.1	114
26.25	108
26.4	112
26.55	107
26.7	106
26.85	105
27	100
27.15	98
27.3	105
27.45	109
27.6	105
27.75	103
27.9	101
28.05	92
28.2	92
28.35	94
28.5	96
28.65	90
28.8	90
28.95	86
29.1	92
29.25	87
29.4	82
29.55	79
29.7	84
29.85	78
30	83
30.15	84
30.3	87
30.45	81
30.6	81
30.75	83
30.9	71
31.05	77
31.2	83
31.35	83
31.5	76
31.65	81
31.8	79
31.95	76
32.1	72
32.25	77
32.4	73
32.55	80
32.7	85
32.85	76
33	78